Folder: ccm_stock/data/nasdaq_historical/20170103_20181231

File: TGA.csv
Date,High,Low,Open,Close,Volume,Adj Close
2017-01-03,1.83,1.69,1.73,1.83,255000.0,1.73096
2017-01-06,1.86,1.8,1.83,1.8,115300.0,1.70258
2017-01-11,1.85,1.75,1.78,1.82,113900.0,1.7215
2017-01-17,1.86,1.76,1.78,1.8,64800.0,1.70258
2017-01-20,1.76,1.72,1.74,1.74,48900.0,1.64583
2017-01-25,1.81,1.72,1.76,1.73,95100.0,1.63637
2017-01-30,1.73,1.64,1.73,1.66,193500.0,1.57016
2017-02-02,1.75,1.71,1.75,1.72,71500.0,1.62691
2017-02-07,1.74,1.67,1.69,1.7,60400.0,1.608
2017-02-10,1.83,1.7,1.7,1.79,409300.0,1.69312
2017-02-15,1.81,1.72,1.8,1.75,101000.0,1.65529
2017-02-21,1.81,1.76,1.77,1.76,95500.0,1.66475
2017-02-24,1.7,1.64,1.68,1.65,153400.0,1.5607
2017-03-01,1.71,1.65,1.65,1.7,112700.0,1.608
2017-03-06,1.64,1.58,1.6,1.59,80500.0,1.50395
2017-03-09,1.6,1.56,1.59,1.57,95500.0,1.48503
2017-03-14,1.6,1.53,1.58,1.55,215700.0,1.46611
2017-03-17,1.66,1.55,1.56,1.6,137300.0,1.51341
2017-03-22,1.53,1.48,1.53,1.5,144900.0,1.41882
2017-03-27,1.51,1.46,1.48,1.49,127500.0,1.40936
2017-03-30,1.63,1.57,1.63,1.59,43200.0,1.50395
2017-04-04,1.6,1.56,1.6,1.58,91100.0,1.49449
2017-04-07,1.6,1.57,1.6,1.58,25700.0,1.49449
2017-04-12,1.64,1.61,1.61,1.64,75200.0,1.55124
2017-04-18,1.55,1.5,1.5,1.51,19700.0,1.42828
2017-04-21,1.58,1.47,1.54,1.53,119700.0,1.4472
2017-04-26,1.52,1.48,1.52,1.5,51900.0,1.41882
2017-05-01,1.5,1.45,1.45,1.48,50600.0,1.3999
2017-05-04,1.44,1.37,1.42,1.38,134900.0,1.30531
2017-05-09,1.47,1.41,1.46,1.43,50000.0,1.35261
2017-05-12,1.54,1.48,1.52,1.5,84800.0,1.41882
2017-05-17,1.65,1.53,1.64,1.54,36400.0,1.45665
2017-05-22,1.65,1.57,1.65,1.6,43200.0,1.51341
2017-05-25,1.58,1.46,1.58,1.48,208200.0,1.3999
2017-05-31,1.46,1.4,1.44,1.44,144700.0,1.36207
2017-06-05,1.46,1.39,1.44,1.41,82900.0,1.33369
2017-06-08,1.4,1.35,1.39,1.36,110700.0,1.2864
2017-06-13,1.37,1.3,1.34,1.33,125100.0,1.25802
2017-06-16,1.3,1.21,1.23,1.28,106100.0,1.21073
2017-06-21,1.33,1.22,1.31,1.22,109000.0,1.15397
2017-06-26,1.33,1.27,1.33,1.32,18900.0,1.24856
2017-06-29,1.31,1.29,1.29,1.3,37200.0,1.22964
2017-07-05,1.33,1.3,1.33,1.31,3700.0,1.2391
2017-07-10,1.31,1.26,1.31,1.28,16600.0,1.21073
2017-07-13,1.35,1.28,1.29,1.33,60100.0,1.25802
2017-07-18,1.37,1.34,1.36,1.36,39200.0,1.2864
2017-07-21,1.37,1.34,1.34,1.36,144300.0,1.2864
2017-07-26,1.36,1.33,1.35,1.34,63600.0,1.26748
2017-07-31,1.39,1.35,1.36,1.35,10300.0,1.27694
2017-08-03,1.3,1.28,1.3,1.29,27000.0,1.22018
2017-08-08,1.28,1.23,1.25,1.24,65800.0,1.17289
2017-08-11,1.25,1.18,1.24,1.19,100900.0,1.1256
2017-08-16,1.25,1.21,1.22,1.23,106800.0,1.16343
2017-08-21,1.22,1.18,1.19,1.2,63100.0,1.13506
2017-08-24,1.31,1.22,1.24,1.31,34800.0,1.2391
2017-08-29,1.33,1.24,1.24,1.29,23500.0,1.22018
2017-09-01,1.36,1.29,1.35,1.29,18600.0,1.22018
2017-09-07,1.34,1.28,1.29,1.29,12300.0,1.22018
2017-09-12,1.23,1.16,1.23,1.17,127800.0,1.10668
2017-09-15,1.26,1.07,1.23,1.07,438800.0,1.01209
2017-09-20,1.18,1.14,1.15,1.16,129100.0,1.09722
2017-09-25,1.3,1.25,1.26,1.29,82100.0,1.22018
2017-09-28,1.39,1.35,1.35,1.38,64200.0,1.30531
2017-10-03,1.43,1.35,1.41,1.42,59900.0,1.34315
2017-10-06,1.52,1.45,1.45,1.51,182500.0,1.42828
2017-10-11,1.64,1.54,1.56,1.64,115000.0,1.55124
2017-10-16,1.65,1.58,1.59,1.6,41200.0,1.51341
2017-10-19,1.61,1.5,1.61,1.61,35100.0,1.52287
2017-10-24,1.59,1.53,1.53,1.57,41000.0,1.48503
2017-10-27,1.6,1.54,1.56,1.6,34700.0,1.51341
2017-11-01,1.77,1.68,1.68,1.77,151400.0,1.67421
2017-11-06,1.59,1.49,1.56,1.54,128200.0,1.45665
2017-11-09,1.55,1.49,1.55,1.51,42800.0,1.42828
2017-11-14,1.5,1.47,1.49,1.48,43800.0,1.3999
2017-11-17,1.5,1.44,1.44,1.48,21400.0,1.3999
2017-11-22,1.53,1.48,1.48,1.49,116900.0,1.40936
2017-11-28,1.48,1.44,1.46,1.48,21700.0,1.3999
2017-12-01,1.5,1.45,1.46,1.45,51300.0,1.37153
2017-12-06,1.44,1.36,1.44,1.37,171100.0,1.29585
2017-12-11,1.38,1.3,1.35,1.37,49600.0,1.29585
2017-12-14,1.34,1.31,1.34,1.33,102200.0,1.25802
2017-12-19,1.28,1.26,1.27,1.26,78000.0,1.19181
2017-12-22,1.35,1.3,1.33,1.34,222000.0,1.26748
2017-12-28,1.43,1.38,1.38,1.4,119100.0,1.32423
2018-01-03,1.46,1.36,1.45,1.44,94600.0,1.36207
2018-01-08,1.44,1.42,1.44,1.44,119300.0,1.36207
2018-01-11,1.5,1.44,1.44,1.48,315000.0,1.3999
2018-01-17,1.46,1.44,1.46,1.45,28300.0,1.37153
2018-01-22,1.49,1.46,1.47,1.47,48300.0,1.39044
2018-01-25,1.5,1.46,1.46,1.48,61000.0,1.3999
2018-01-30,1.49,1.38,1.48,1.39,180500.0,1.31477
2018-02-02,1.47,1.4,1.44,1.44,65300.0,1.36207
2018-02-07,1.47,1.37,1.4,1.37,175900.0,1.29585
2018-02-12,1.33,1.27,1.27,1.33,70300.0,1.25802
2018-02-15,1.35,1.3,1.35,1.3,52800.0,1.22964
2018-02-21,1.34,1.28,1.33,1.28,69700.0,1.21073
2018-02-26,1.36,1.31,1.34,1.34,71900.0,1.26748
2018-03-01,1.34,1.28,1.34,1.29,14300.0,1.22018
2018-03-06,1.3,1.27,1.3,1.28,45100.0,1.21073
2018-03-09,1.31,1.28,1.3,1.29,69100.0,1.22018
2018-03-14,1.34,1.32,1.34,1.33,21900.0,1.25802
2018-03-19,1.35,1.32,1.32,1.34,27700.0,1.26748
2018-03-22,1.45,1.41,1.41,1.45,23900.0,1.37153
2018-03-27,1.39,1.34,1.38,1.35,49200.0,1.27694
2018-04-02,1.34,1.31,1.33,1.32,23700.0,1.24856
2018-04-05,1.33,1.25,1.31,1.26,273200.0,1.19181
2018-04-10,1.33,1.28,1.28,1.3,104300.0,1.22964
2018-04-13,1.39,1.33,1.35,1.36,72500.0,1.2864
2018-04-18,1.46,1.39,1.4,1.39,149300.0,1.31477
2018-04-23,1.6,1.53,1.6,1.57,136600.0,1.48503
2018-04-26,1.68,1.62,1.64,1.63,64400.0,1.54178
2018-05-01,1.9,1.78,1.8,1.83,180500.0,1.73096
2018-05-04,1.94,1.84,1.9,1.87,162100.0,1.76879
2018-05-09,2.14,2.02,2.02,2.12,620600.0,2.00526
2018-05-14,1.94,1.86,1.88,1.92,249200.0,1.81609
2018-05-17,2.1,2.03,2.05,2.04,664300.0,1.92959
2018-05-22,2.75,2.19,2.7,2.24,1550600.0,2.11877
2018-05-25,2.3,2.12,2.3,2.27,518800.0,2.14715
2018-05-31,2.55,2.46,2.49,2.54,363700.0,2.40253
2018-06-05,2.42,2.24,2.39,2.36,428600.0,2.23228
2018-06-08,2.47,2.38,2.45,2.46,189400.0,2.32686
2018-06-13,2.45,2.36,2.39,2.4,401700.0,2.27011
2018-06-18,2.38,2.23,2.23,2.33,253700.0,2.2039
2018-06-21,2.36,2.28,2.36,2.31,178400.0,2.18498
2018-06-26,2.48,2.38,2.43,2.44,511500.0,2.30795
2018-06-29,2.83,2.69,2.77,2.77,641600.0,2.62009
2018-07-05,2.93,2.8,2.9,2.9,784100.0,2.74305
2018-07-10,3.48,3.32,3.33,3.41,1388600.0,3.22545
2018-07-13,4.13,3.76,3.77,4.05,1783500.0,3.83081
2018-07-18,3.65,3.37,3.52,3.59,999100.0,3.39571
2018-07-23,3.5,3.36,3.45,3.42,384500.0,3.23491
2018-07-26,3.4,3.28,3.33,3.35,318300.0,3.1687
2018-07-31,3.3,3.08,3.14,3.24,421700.0,3.06465
2018-08-03,3.27,3.16,3.17,3.22,581300.0,3.04573
2018-08-08,3.24,3.16,3.17,3.21,418900.0,3.03627
2018-08-13,3.22,3.02,3.22,3.06,533600.0,2.89439
2018-08-16,3.11,2.88,2.92,3.07,606000.0,2.90385
2018-08-21,3.58,3.31,3.38,3.47,575500.0,3.2822
2018-08-24,3.6,3.43,3.43,3.49,290700.0,3.30112
2018-08-29,3.5,3.42,3.44,3.46,149800.0,3.27274
2018-09-04,3.38,3.26,3.38,3.32,220900.0,3.17241
2018-09-07,3.24,3.16,3.19,3.21,119200.0,3.0673
2018-09-12,3.85,3.5,3.8,3.63,377300.0,3.46863
2018-09-17,3.65,3.53,3.61,3.55,185700.0,3.39219
2018-09-20,3.4,3.25,3.38,3.31,356300.0,3.16286
2018-09-25,3.7,3.41,3.51,3.44,703300.0,3.28708
2018-09-28,3.44,3.27,3.29,3.34,765400.0,3.19152
2018-10-03,3.51,3.36,3.48,3.45,776300.0,3.29663
2018-10-08,3.3,3.16,3.3,3.28,303600.0,3.13419
2018-10-11,3.21,2.99,3.14,3.0,497800.0,2.86664
2018-10-16,3.14,3.0,3.01,3.11,318600.0,2.97175
2018-10-19,3.1,2.97,3.04,2.99,229600.0,2.85708
2018-10-24,2.44,2.06,2.06,2.34,1109300.0,2.23598
2018-10-29,2.49,2.27,2.46,2.31,321100.0,2.20731
2018-11-01,2.47,2.28,2.33,2.47,244200.0,2.3602
2018-11-06,2.42,2.32,2.38,2.39,181300.0,2.28375
2018-11-09,2.21,2.09,2.21,2.17,167900.0,2.07353
2018-11-14,2.42,2.12,2.41,2.15,243400.0,2.05442
2018-11-19,2.44,2.23,2.32,2.32,357900.0,2.21687
2018-11-23,2.17,2.1,2.16,2.13,43000.0,2.03531
2018-11-28,2.07,1.96,2.03,2.05,185400.0,1.95887
2018-12-03,2.23,2.15,2.17,2.18,139500.0,2.08309
2018-12-07,2.07,1.97,2.03,2.0,161900.0,1.91109
2018-12-12,1.95,1.87,1.92,1.88,219900.0,1.79643
2018-12-17,1.84,1.75,1.79,1.77,336800.0,1.69132
2018-12-20,1.66,1.55,1.66,1.62,302600.0,1.54798
2018-12-26,1.68,1.48,1.52,1.66,144900.0,1.58621
2018-12-31,1.88,1.69,1.7,1.87,240200.0,1.78687